date	time	group	subject	build	blocknum	trialnum	blockcode	trialcode	pretrialpause	posttrialpause	windowcenter	trialduration	trialtimeout	blocktimeout	response	correct	latency	inwindow
122017	14:25:45	1	1	4.0.9.0	2	1	exerciseblk1	NR1	500	0	0	0	0	0	33	1	18	0
122017	14:25:45	1	1	4.0.9.0	2	2	exerciseblk1	MR1	500	0	0	0	0	0	36	1	35	0
122017	14:25:45	1	1	4.0.9.0	2	3	exerciseblk1	NR1	500	0	0	0	0	0	36	0	36	0
122017	14:25:45	1	1	4.0.9.0	2	4	exerciseblk1	MR1	500	0	0	0	0	0	36	1	43	0
122017	14:25:45	1	1	4.0.9.0	2	5	exerciseblk1	NR1	500	0	0	0	0	0	33	1	40	0
122017	14:25:45	1	1	4.0.9.0	2	6	exerciseblk1	MR1	500	0	0	0	0	0	36	1	46	0
122017	14:25:45	1	1	4.0.9.0	2	7	exerciseblk1	NR1	500	0	0	0	0	0	33	1	32	0
122017	14:25:45	1	1	4.0.9.0	2	8	exerciseblk1	MR1	500	0	0	0	0	0	36	1	39	0
122017	14:25:45	1	1	4.0.9.0	2	9	exerciseblk1	NR1	500	0	0	0	0	0	36	0	34	0
122017	14:25:45	1	1	4.0.9.0	2	10	exerciseblk1	MR1	500	0	0	0	0	0	36	1	36	0
122017	14:25:45	1	1	4.0.9.0	5	1	judgeblk1	NR1	500	0	0	0	0	0	36	0	49	0
122017	14:25:45	1	1	4.0.9.0	5	2	judgeblk1	MR1	500	0	0	0	0	0	36	1	42	0
122017	14:25:45	1	1	4.0.9.0	5	3	judgeblk1	NR1	500	0	0	0	0	0	36	0	40	0
122017	14:25:45	1	1	4.0.9.0	5	4	judgeblk1	MR1	500	0	0	0	0	0	36	1	42	0
122017	14:25:45	1	1	4.0.9.0	5	5	judgeblk1	NR1	500	0	0	0	0	0	33	1	27	0
122017	14:25:45	1	1	4.0.9.0	5	6	judgeblk1	MR1	500	0	0	0	0	0	36	1	47	0
122017	14:25:45	1	1	4.0.9.0	5	7	judgeblk1	NR1	500	0	0	0	0	0	33	1	26	0
122017	14:25:45	1	1	4.0.9.0	5	8	judgeblk1	MR1	500	0	0	0	0	0	36	1	30	0
122017	14:25:45	1	1	4.0.9.0	5	9	judgeblk1	NR1	500	0	0	0	0	0	33	1	27	0
122017	14:25:45	1	1	4.0.9.0	5	10	judgeblk1	MR1	500	0	0	0	0	0	33	0	31	0
122017	14:25:45	1	1	4.0.9.0	5	11	judgeblk1	NR1	500	0	0	0	0	0	33	1	35	0
122017	14:25:45	1	1	4.0.9.0	5	12	judgeblk1	MR1	500	0	0	0	0	0	36	1	38	0
122017	14:25:45	1	1	4.0.9.0	5	13	judgeblk1	NR1	500	0	0	0	0	0	33	1	34	0
122017	14:25:45	1	1	4.0.9.0	5	14	judgeblk1	MR1	500	0	0	0	0	0	36	1	55	0
122017	14:25:45	1	1	4.0.9.0	5	15	judgeblk1	NR1	500	0	0	0	0	0	36	0	47	0
122017	14:25:45	1	1	4.0.9.0	5	16	judgeblk1	MR1	500	0	0	0	0	0	33	0	49	0
122017	14:25:45	1	1	4.0.9.0	5	17	judgeblk1	NR1	500	0	0	0	0	0	33	1	37	0
122017	14:25:45	1	1	4.0.9.0	5	18	judgeblk1	MR1	500	0	0	0	0	0	33	0	39	0
122017	14:25:45	1	1	4.0.9.0	5	19	judgeblk1	NR1	500	0	0	0	0	0	33	1	46	0
122017	14:25:45	1	1	4.0.9.0	5	20	judgeblk1	MR1	500	0	0	0	0	0	36	1	32	0
122017	14:25:45	1	1	4.0.9.0	5	21	judgeblk1	NR1	500	0	0	0	0	0	36	0	47	0
122017	14:25:45	1	1	4.0.9.0	5	22	judgeblk1	MR1	500	0	0	0	0	0	36	1	47	0
122017	14:25:45	1	1	4.0.9.0	5	23	judgeblk1	NR1	500	0	0	0	0	0	36	0	56	0
122017	14:25:45	1	1	4.0.9.0	5	24	judgeblk1	MR1	500	0	0	0	0	0	36	1	59	0
122017	14:25:45	1	1	4.0.9.0	5	25	judgeblk1	NR1	500	0	0	0	0	0	33	1	47	0
122017	14:25:45	1	1	4.0.9.0	5	26	judgeblk1	MR1	500	0	0	0	0	0	36	1	50	0
122017	14:25:45	1	1	4.0.9.0	5	27	judgeblk1	NR1	500	0	0	0	0	0	33	1	25	0
122017	14:25:45	1	1	4.0.9.0	5	28	judgeblk1	MR1	500	0	0	0	0	0	36	1	61	0
122017	14:25:45	1	1	4.0.9.0	5	29	judgeblk1	NR1	500	0	0	0	0	0	33	1	22	0
122017	14:25:45	1	1	4.0.9.0	5	30	judgeblk1	MR1	500	0	0	0	0	0	36	1	26	0
122017	14:25:45	1	1	4.0.9.0	5	31	judgeblk1	NR1	500	0	0	0	0	0	36	0	46	0
122017	14:25:45	1	1	4.0.9.0	5	32	judgeblk1	MR1	500	0	0	0	0	0	33	0	33	0
122017	14:25:45	1	1	4.0.9.0	5	33	judgeblk1	NR1	500	0	0	0	0	0	33	1	25	0
122017	14:25:45	1	1	4.0.9.0	5	34	judgeblk1	MR1	500	0	0	0	0	0	36	1	42	0
122017	14:25:45	1	1	4.0.9.0	5	35	judgeblk1	NR1	500	0	0	0	0	0	36	0	47	0
122017	14:25:45	1	1	4.0.9.0	5	36	judgeblk1	MR1	500	0	0	0	0	0	36	1	79	0
122017	14:25:45	1	1	4.0.9.0	5	37	judgeblk1	NR1	500	0	0	0	0	0	33	1	48	0
122017	14:25:45	1	1	4.0.9.0	5	38	judgeblk1	MR1	500	0	0	0	0	0	36	1	48	0
122017	14:25:45	1	1	4.0.9.0	5	39	judgeblk1	NR1	500	0	0	0	0	0	36	0	30	0
122017	14:25:45	1	1	4.0.9.0	5	40	judgeblk1	MR1	500	0	0	0	0	0	36	1	60	0
122017	14:25:45	1	1	4.0.9.0	5	41	judgeblk1	NR1	500	0	0	0	0	0	33	1	32	0
122017	14:25:45	1	1	4.0.9.0	5	42	judgeblk1	MR1	500	0	0	0	0	0	36	1	34	0
122017	14:25:45	1	1	4.0.9.0	5	43	judgeblk1	NR1	500	0	0	0	0	0	36	0	56	0
122017	14:25:45	1	1	4.0.9.0	5	44	judgeblk1	MR1	500	0	0	0	0	0	36	1	24	0
122017	14:25:45	1	1	4.0.9.0	5	45	judgeblk1	NR1	500	0	0	0	0	0	33	1	43	0
122017	14:25:45	1	1	4.0.9.0	5	46	judgeblk1	MR1	500	0	0	0	0	0	33	0	50	0
122017	14:25:45	1	1	4.0.9.0	5	47	judgeblk1	NR1	500	0	0	0	0	0	33	1	39	0
122017	14:25:45	1	1	4.0.9.0	5	48	judgeblk1	MR1	500	0	0	0	0	0	36	1	39	0
